"Time (s)","Acceleration x (m/s^2)","Acceleration y (m/s^2)","Acceleration z (m/s^2)"
1.221101035E0,5.832615495E-2,-8.836936951E-2,-1.211350709E-1
1.251093667E0,4.322473705E-2,-4.725551605E-2,-8.632263541E-2
1.281086366E0,-2.194697037E-2,9.681892395E-2,-1.590396464E-2
1.311085732E0,-6.457199156E-2,2.025547028E-1,7.018961757E-2
1.341078431E0,-9.389606118E-2,-5.099105835E-2,1.632017195E-1
1.371071096E0,-4.541581869E-2,-1.562767029E-1,1.624661833E-1
1.401063794E0,3.516425192E-2,-6.539440155E-2,1.499480605E-1
1.431056659E0,8.180383593E-3,-1.781425476E-1,7.050649822E-2
1.461049291E0,-1.946333982E-2,-3.460597992E-1,-8.795183897E-2
1.491041989E0,5.706957728E-2,-2.770662308E-1,-1.604172885E-1
1.521034521E0,1.459508091E-1,-2.032670975E-1,-2.334081382E-1
1.551027219E0,1.473179311E-1,-2.656841278E-1,-2.652913332E-1
1.581019884E0,1.764721423E-1,-2.176628113E-1,-2.367364019E-1
1.611005783E0,1.121018082E-1,-7.607364655E-2,-2.102513611E-1
1.640997382E0,4.186609015E-2,1.327047348E-1,-1.825014800E-1
1.670990080E0,-1.090098321E-1,1.379766464E-1,-1.728117466E-2
1.700982712E0,-1.872358918E-1,-5.573654175E-2,8.946553618E-2
1.730975377E0,-1.473330557E-1,-1.179037094E-1,1.433867365E-1
1.760968075E0,-4.644238204E-2,-8.911705017E-2,7.674655318E-2
1.790960707E0,3.230316192E-2,-1.728696823E-1,8.757863939E-2
1.820959872E0,5.888744071E-2,-3.595876694E-1,8.144618571E-2
1.850952537E0,5.735460669E-2,-3.332881927E-1,1.680807769E-2
1.880945202E0,1.359861065E-2,-4.411087036E-1,-6.772825867E-2
1.910937900E0,-2.868913859E-2,-4.890317917E-1,-1.265419126E-1
1.940930633E0,3.052124754E-2,-6.805334091E-1,-1.037969142E-1
1.970923298E0,9.956301004E-2,-4.051380157E-1,-1.128491163E-1
2.000916097E0,1.021182388E-1,-7.950782776E-2,-5.115501955E-2
2.030913062E0,-4.859782755E-3,1.621570587E-1,8.175547421E-2
2.060905727E0,-3.763590008E-2,1.069526672E-1,1.043595225E-1
2.090898425E0,-1.983399689E-2,-3.909969330E-2,-4.386910237E-3
2.120884623E0,3.200666606E-2,-1.659784317E-1,-8.949995041E-2
2.150877288E0,7.199607044E-2,3.752326965E-2,-9.771956503E-2
2.180870053E0,3.410356492E-2,2.070713043E-2,-1.343017220E-1
2.210862718E0,3.219261765E-2,-2.090835571E-1,-8.240677416E-2
2.240856516E0,5.817572027E-2,-3.311128616E-1,-1.980775893E-1
2.270849181E0,1.258597076E-1,-6.158761978E-1,-1.428087056E-1
2.300841747E0,1.551376581E-1,-7.211103439E-1,4.331256077E-2
2.330830145E0,1.688048840E-1,-7.020711899E-1,1.325293034E-1
2.360822877E0,1.569161415E-1,-4.653015137E-1,1.263558865E-1
2.390815542E0,3.909903765E-2,-4.009313583E-1,5.635850504E-2
2.420808207E0,-6.365216523E-2,-3.628892899E-1,5.005216599E-2
2.450800939E0,-1.114677414E-1,-4.685335159E-1,1.441501081E-3
2.480793504E0,-1.130986363E-1,-3.251771927E-1,-1.357875913E-1
2.510786202E0,-1.175824180E-1,-1.696882248E-1,-2.011207640E-1
2.540778834E0,-1.252375543E-1,1.450538635E-2,-1.854166240E-1
2.560874000E0,-1.384083629E-1,3.376684189E-1,-1.028465554E-1
2.581002433E0,-7.071414590E-2,5.507087708E-1,-4.340514541E-3
2.601130866E0,-2.847008407E-2,5.482749939E-1,5.067563802E-2
2.621259266E0,-7.285079360E-2,2.441406250E-1,6.582738459E-2
2.641389132E0,-2.314786613E-2,1.555852890E-1,1.045667380E-1
2.661517498E0,4.315496236E-2,2.131671906E-1,1.315686405E-1
2.681645931E0,1.163629070E-1,1.462707520E-1,5.450066924E-2
2.701774331E0,1.621541977E-1,1.343927383E-1,1.917442679E-2
2.721902731E0,2.369253039E-1,2.228136063E-1,4.515203834E-2
2.742031764E0,2.575053573E-1,2.270555496E-1,9.920878708E-2
2.762160197E0,1.269766390E-1,-1.736001968E-1,4.231858253E-2
2.782288630E0,9.746268392E-2,-1.816701889E-1,4.889658093E-2
2.802417030E0,2.751768753E-2,-1.468114853E-1,9.220585227E-2
2.822545463E0,-1.766980439E-2,-1.693305969E-1,1.357289851E-1
2.842680562E0,-3.439114988E-2,-2.178964615E-1,1.991078109E-1
2.862708928E0,-1.723753661E-1,-5.036354065E-3,1.941558868E-1
2.892701560E0,-2.576767802E-1,1.318407059E-1,1.505567580E-1
2.922694325E0,-3.087038994E-1,1.924314499E-1,1.415786445E-1
2.952685591E0,-2.743636370E-1,2.810573578E-2,9.865765274E-2
2.972714057E0,-2.676713467E-1,2.884006500E-2,2.607412636E-2
2.992775890E0,-2.607613504E-1,-3.991413116E-2,-3.475472331E-2
3.012837656E0,-2.636252344E-1,-2.523908615E-1,-2.210797071E-1
3.032898722E0,-2.272803783E-1,-2.638368607E-1,-3.428247273E-1
3.052915542E0,-1.994895786E-1,-2.443370819E-1,-4.205926657E-1
3.072977308E0,-1.368293464E-1,-1.817922592E-1,-4.227962494E-1
3.093039074E0,-1.453748345E-1,-2.749433517E-1,-3.525584936E-1
3.113100840E0,-1.575493366E-1,-7.370948792E-2,-3.416955769E-1
3.133155872E0,-1.796562374E-1,1.106824875E-1,-3.829136491E-1
3.153217405E0,-1.847985834E-1,1.298055649E-1,-3.922162056E-1
3.173279171E0,-1.851971447E-1,2.278900146E-1,-3.635954261E-1
3.193340937E0,-1.530425102E-1,5.485944748E-1,-3.352375627E-1
3.213402636E0,-1.504970044E-1,3.854694366E-1,-2.350345105E-1
3.233464402E0,-1.312104166E-1,3.082466125E-1,-1.678588241E-1
3.253526134E0,-1.112269163E-1,4.151229858E-1,-1.726012230E-1
3.273554534E0,-8.706088364E-2,3.061828613E-1,-1.498588622E-1
3.303547166E0,-7.698226720E-3,2.364873886E-1,4.121887684E-2
3.333539864E0,1.704780012E-1,6.237268448E-1,3.258858919E-1
3.363532396E0,2.585392296E-1,7.579784393E-1,4.058896601E-1
3.393525094E0,1.766438335E-1,4.392557144E-1,3.892304897E-1
3.423517792E0,1.888770014E-1,7.520151138E-1,2.478140295E-1
3.453510624E0,1.521412581E-1,8.043432236E-1,1.321156621E-1
3.483503322E0,-5.430580676E-2,7.756042480E-1,4.818651080E-2
3.513495987E0,-9.782245010E-2,6.314821243E-1,1.946237683E-2
3.543488652E0,-1.186404079E-1,3.097152710E-1,7.524031401E-2
3.573481350E0,-8.656623214E-2,3.517236710E-1,6.270910800E-2
3.603474015E0,1.230652258E-2,7.140312195E-1,5.328431726E-3
3.633466680E0,3.663980588E-2,1.114006042E0,-4.400674999E-2
3.663459378E0,2.296906710E-1,2.294049740E0,9.565795958E-2
3.693452077E0,6.954918504E-1,6.823651314E0,6.569200754E-1
3.723444742E0,3.159726858E-1,6.033754826E0,4.490018785E-1
3.753437440E0,-6.147403717E-1,4.629359722E0,3.816972673E-2
3.783430105E0,-9.426758289E-1,3.967712402E0,-1.043944836E0
3.813422770E0,-9.706951380E-1,2.086483955E0,-1.310683608E0
3.843415435E0,-1.060801983E0,-2.223682404E-2,-1.223567247E0
3.873408100E0,-5.260020494E-1,-1.781556129E0,-3.843924999E-1
3.903400765E0,9.950556159E-1,-5.299788475E0,8.353196383E-1
3.933393497E0,1.225474834E0,-6.642272949E0,1.027804136E0
3.963386162E0,7.838134766E-1,-7.544595718E0,2.818876505E-1
3.993378861E0,-4.475326836E-1,-6.963396072E0,-1.332663536E0
4.023371526E0,-7.678846717E-1,-6.724475861E0,-1.665073991E0
4.053364191E0,-6.402201056E-1,-6.333022118E0,-9.607641101E-1
4.083356889E0,3.963993490E-2,-5.769180298E0,2.809858322E-1
4.113349588E0,5.476164818E-1,-5.144797325E0,9.200384021E-1
4.143342253E0,5.606824160E-1,-2.866749763E0,5.603178740E-1
4.173334951E0,3.592323363E-1,-1.237107277E0,-2.908295393E-2
4.203327616E0,-1.152817458E-1,5.519132614E-1,-8.175945282E-1
4.233320215E0,-3.905780315E-1,1.762829781E0,-1.194802642E0
4.263312913E0,-6.007344723E-1,2.708823681E0,-8.005888462E-1
4.293305512E0,-8.009237647E-1,3.527789116E0,-2.292521298E-1
4.323298210E0,-9.186067581E-1,4.090682983E0,4.264374375E-1
4.353290908E0,-1.059109807E0,4.570819855E0,1.052982926E0
4.383283540E0,-1.118768215E0,4.775088310E0,1.255897045E0
4.413276238E0,-1.025479913E0,4.655383110E0,1.144943595E0
4.443268936E0,-8.303126097E-1,4.063904762E0,8.456064463E-1
4.473261601E0,-3.252146244E-1,3.068505287E0,3.213125467E-1
4.503254299E0,1.047158614E-1,1.928621292E0,-1.763327420E-2
4.533246997E0,2.399064302E-1,9.190330505E-1,-1.234640330E-1
4.563239629E0,2.169651985E-1,1.597223282E-1,2.551708370E-2
4.593232327E0,-2.368952483E-1,-5.652742386E-1,3.911599517E-1
4.623224992E0,-8.930605650E-1,-1.237670898E0,7.461158037E-1
4.653217657E0,-1.008814573E0,-1.695550919E0,7.667561173E-1
4.683210355E0,-5.958327055E-1,-2.906755447E0,5.460728407E-1
4.713202987E0,1.566601545E-1,-3.735664368E0,4.378501773E-1
4.743195652E0,8.662297726E-1,-4.439089775E0,3.321924806E-1
4.773188317E0,9.481743574E-1,-4.313913345E0,3.605762124E-1
4.803180982E0,5.293974876E-1,-3.808409691E0,3.705431819E-1
4.823242782E0,-1.996457875E-1,-2.533854485E0,2.996191978E-1
4.843304548E0,-4.395474792E-1,-2.219019890E0,2.587051392E-1
4.863366314E0,-6.071113944E-1,-1.610105515E0,2.637096047E-1
4.883428080E0,-5.757053494E-1,-8.154459000E-1,2.439879179E-1
4.903489846E0,-4.192816615E-1,-6.295347214E-1,2.490549982E-1
4.923551612E0,9.734854102E-2,-2.574634552E-1,3.908069134E-1
4.943613378E0,4.389008582E-1,7.218360901E-3,5.163865685E-1
4.963675144E0,6.719564199E-1,2.417736053E-1,5.794838667E-1
4.983736910E0,8.088449240E-1,5.965452194E-1,6.348153353E-1
5.003798710E0,8.193262815E-1,1.171156883E0,6.183922291E-1
5.023860476E0,6.762993932E-1,1.594631195E0,5.796432495E-1
5.043922208E0,3.893694878E-1,2.018890858E0,4.580725431E-1
5.063983974E0,1.055068597E-1,2.365452290E0,3.102236092E-1
5.084045740E0,-1.527971625E-1,2.604671955E0,2.001427114E-1
5.104107506E0,-3.242627382E-1,2.758747578E0,1.761189997E-1
5.134100171E0,-4.867091179E-1,2.759151459E0,1.814384460E-1
5.164092869E0,-2.943674028E-1,2.340845585E0,3.485832810E-1
5.194085501E0,7.001075149E-2,1.750788689E0,6.013635397E-1
5.224078199E0,4.661071301E-1,1.046328545E0,7.456538677E-1
5.254070897E0,7.547401190E-1,2.677078247E-1,7.482210398E-1
5.284063529E0,6.421726942E-1,-2.305355072E-1,5.641593933E-1
5.314056194E0,3.376747072E-1,-4.534006119E-1,3.401013613E-1
5.344048892E0,-2.777668536E-1,-7.354192734E-1,1.373533607E-1
5.374041524E0,-6.058029532E-1,-8.189811707E-1,1.305504888E-1
5.394103323E0,-6.489024162E-1,-1.229347229E0,2.810363173E-1
5.414165089E0,-4.267327785E-1,-1.620667458E0,4.161018729E-1
5.434226855E0,-1.638637483E-1,-1.924658775E0,4.569558501E-1
5.454288621E0,2.642622590E-2,-2.101977348E0,4.434192777E-1
5.474350387E0,3.432168961E-1,-2.399961472E0,3.324571252E-1
5.494412153E0,4.585157335E-1,-2.418635368E0,1.533201039E-1
5.514473919E0,3.944072425E-1,-2.332457542E0,1.226341631E-2
5.534535719E0,1.218011379E-1,-1.995947838E0,-6.235000119E-2
5.554597485E0,-2.258651853E-1,-1.567837715E0,-9.510149807E-2
5.574659251E0,-5.447683334E-1,-1.108010292E0,1.980718225E-2
5.594721051E0,-8.410371542E-1,-3.707895279E-1,2.279751599E-1
5.614782851E0,-8.840965629E-1,-2.756891251E-1,3.294841051E-1
5.634844617E0,-8.182759285E-1,-6.224822998E-2,3.617212176E-1
5.654906383E0,-5.563500524E-1,9.677314758E-2,2.737308741E-1
5.674968149E0,-3.348339498E-1,2.158060074E-1,9.417393059E-2
5.704960814E0,-5.107769370E-2,3.563938141E-1,-1.803646833E-1
5.734953479E0,-2.453318238E-2,6.775903702E-1,-3.875902593E-1
5.764946144E0,-1.730982661E-1,1.027830124E0,-3.305328190E-1
5.794938842E0,-3.779425919E-1,1.208810806E0,-1.476630270E-1
5.824931474E0,-6.099213362E-1,1.479027748E0,2.500663698E-1
5.854924106E0,-6.444182396E-1,1.396810532E0,5.063920021E-1
5.884916804E0,-5.057764649E-1,1.110270500E0,4.338386059E-1
5.914909403E0,-3.117318153E-1,7.670917511E-1,1.419737935E-1
5.944902168E0,-9.609918296E-2,3.640937805E-1,-2.800885737E-1
5.974894866E0,1.109817624E-2,3.142738342E-2,-5.684027672E-1
6.004887498E0,2.392879128E-2,-1.315927505E-1,-6.150673628E-1
6.034880196E0,-4.598411918E-2,-4.104766846E-1,-2.511145473E-1
6.064872894E0,-1.032258421E-1,-5.992498398E-1,1.838379800E-1
6.094865526E0,-1.079927534E-1,-7.480964661E-1,3.830707371E-1
6.124858224E0,-8.224347234E-2,-1.010726929E0,2.238546461E-1
6.154850922E0,-5.209222436E-2,-1.094613075E0,-1.117411554E-1
6.184843554E0,1.151268184E-2,-1.143746376E0,-7.279531360E-1
6.214836252E0,5.120705068E-2,-1.073005676E0,-9.311074018E-1
6.244828851E0,7.080139220E-2,-8.442859650E-1,-7.388439178E-1
6.274821516E0,8.275412023E-2,-6.154203415E-1,-3.548044264E-1
6.304814214E0,5.781981349E-2,-3.640918732E-1,1.186367869E-2
6.334806879E0,6.181150675E-2,-2.272577286E-1,5.595541000E-2
6.364799544E0,1.509484649E-2,9.703350067E-2,-2.283925116E-1
6.394792242E0,-7.885187864E-3,2.919273376E-1,-6.138300300E-1
6.424784907E0,-8.160501719E-3,4.642505646E-1,-9.250001907E-1
6.454777572E0,-8.399590850E-3,5.420837402E-1,-9.613114595E-1
6.484770270E0,3.713943064E-2,5.893211365E-1,-6.972898245E-1
6.514762969E0,4.485270381E-2,5.918855667E-1,-3.724669218E-1
6.544755634E0,1.852504909E-2,5.702867508E-1,4.892281443E-2
6.574748299E0,3.048941493E-3,5.705480576E-1,1.448455453E-1
6.604740964E0,-1.662452519E-2,4.099512100E-1,-3.899119049E-2
6.634733662E0,-3.528594971E-5,2.128152847E-1,-3.153190017E-1
6.664726327E0,3.663372993E-2,5.595016479E-2,-4.981670380E-1
6.694718992E0,8.127404004E-2,-1.662607193E-1,-5.437843204E-1
6.724711690E0,4.810820520E-2,-3.944215775E-1,-2.045536637E-1
6.754704355E0,-5.743359029E-2,-4.593448639E-1,1.898432821E-1
6.784697054E0,-1.647033542E-1,-4.502639771E-1,4.887132049E-1
6.814689719E0,-2.542888224E-1,-4.644021988E-1,4.848346114E-1
6.844682384E0,-1.945381463E-1,-5.307617188E-1,2.555779815E-1
6.874675049E0,-1.290191710E-1,-5.575942993E-1,4.073737934E-2
6.904667747E0,1.195371151E-4,-6.499691010E-1,-1.785275191E-1
6.934660379E0,4.770278931E-3,-5.855445862E-1,-6.461539119E-2
6.964653044E0,-6.055501103E-2,-4.801006317E-1,1.336092800E-1
6.994645742E0,-2.972685993E-1,-1.617918015E-1,4.686539471E-1
7.024638374E0,-4.577180743E-1,7.760524750E-2,5.678430796E-1
7.054631072E0,-5.084227324E-1,2.230691910E-1,4.333329797E-1
7.084623771E0,-3.979725242E-1,2.477064133E-1,1.905916929E-1
7.114616403E0,-2.169393152E-1,1.797771454E-1,-2.486446500E-2
7.144609101E0,-3.150996566E-2,1.250257492E-1,-9.911826253E-2
7.174601799E0,-6.704390049E-3,1.212491989E-1,2.100186422E-3
7.204594431E0,-1.187619865E-1,2.086477280E-1,2.316507101E-1
7.234587129E0,-3.130379915E-1,3.208475113E-1,3.787036538E-1
7.264579827E0,-4.265325367E-1,3.810100555E-1,3.774765730E-1
7.294572459E0,-4.535846710E-1,3.458232880E-1,2.754273713E-1
7.324565191E0,-2.769890428E-1,1.047601700E-1,8.348551393E-2
7.354557856E0,-6.324553490E-2,-5.454635620E-2,-2.964395657E-2
7.384550488E0,1.640223563E-1,-3.012418747E-1,-4.595175385E-2
7.414543220E0,2.655207515E-1,-4.271411896E-1,9.577289224E-2
7.444535885E0,1.923879981E-1,-3.888778687E-1,2.593564689E-1
7.474528550E0,5.298751593E-2,-3.105840683E-1,3.355442882E-1
7.504521248E0,-1.456788480E-1,-1.867675781E-1,2.802528441E-1
7.534513913E0,-1.372599155E-1,-1.697177887E-1,1.282499582E-1
7.564506578E0,-2.938285470E-3,-2.406320572E-1,-1.514291763E-2
7.594499276E0,2.289453894E-1,-3.406648636E-1,-9.465207160E-2
7.624491908E0,4.031085670E-1,-3.910741806E-1,-6.482128799E-2
7.654484573E0,4.732660651E-1,-3.456916809E-1,5.298639834E-2
7.684477238E0,3.850074112E-1,-1.921768188E-1,1.742087305E-1
7.714469870E0,1.801142097E-1,1.882266998E-2,1.862110645E-1
7.744462568E0,4.270699620E-2,1.455869675E-1,1.541641504E-1
7.774455267E0,-5.736307800E-2,2.266235352E-1,1.165646315E-2
7.804447965E0,2.584120631E-2,1.952342987E-1,-1.398476660E-1
7.834440663E0,1.783583164E-1,9.218120575E-2,-2.403366268E-1
7.864433328E0,3.497483134E-1,-3.497123718E-3,-1.608341336E-1
7.894426026E0,3.809349835E-1,-6.057262421E-2,-6.618314981E-2
7.924418724E0,3.108184934E-1,-5.304145813E-2,6.140278652E-2
7.954411389E0,1.501632333E-1,-6.933212280E-4,1.202483624E-1
7.984404054E0,-7.217733562E-2,7.466793060E-2,1.433420181E-1
8.014396752E0,-2.123456299E-1,9.231281281E-2,4.279065505E-2
8.044389384E0,-2.245063931E-1,3.429222107E-2,-7.837416232E-2
8.074382016E0,-6.420293450E-2,-1.423292160E-1,-1.423217356E-1
8.104374681E0,4.284420609E-2,-2.466964722E-1,-1.444189250E-1
8.134367313E0,1.660211086E-1,-3.778944016E-1,-1.202215441E-3
8.164360011E0,1.081956774E-1,-3.713569641E-1,1.153602153E-1
8.194352709E0,-1.727700233E-3,-3.135013580E-1,1.921965033E-1
8.224345341E0,-2.558534741E-1,-1.463422775E-1,1.863231510E-1
8.254338039E0,-3.580179811E-1,-5.047893524E-2,1.069372594E-1
8.284330737E0,-3.664090931E-1,-1.022720337E-2,-8.746348321E-3
8.314323369E0,-2.503534555E-1,-8.299350739E-2,-9.339637309E-2
8.344316067E0,-1.154842675E-1,-1.263723373E-1,-7.501791418E-2
8.374308765E0,3.149572015E-2,-1.754684448E-1,2.471241355E-2
8.404301397E0,4.461580515E-2,-1.613893509E-1,1.036814004E-1
8.434294129E0,-6.066745520E-2,-6.714820862E-2,1.999777257E-1
8.464286827E0,-2.275947779E-1,7.451534271E-2,1.776502430E-1
8.494279459E0,-3.585139513E-1,1.833038330E-1,7.242365181E-2
8.524272157E0,-3.813572228E-1,1.958169937E-1,-4.318097234E-2
8.554264822E0,-2.607986331E-1,1.191492081E-1,-1.387180686E-1
8.584257487E0,-5.165937543E-2,-5.768299103E-2,-8.375629038E-2
8.614250185E0,1.078181267E-1,-1.587238312E-1,-4.225129634E-2
8.644242850E0,1.466529667E-1,-2.010622025E-1,3.699548915E-2
8.674235515E0,3.504297137E-2,-1.389856339E-1,6.004333124E-2
8.704228213E0,-8.532820642E-2,-5.829906464E-2,1.076404378E-2
8.734220845E0,-1.848798245E-1,-1.575469971E-3,-8.264788985E-2
8.764213477E0,-1.722857207E-1,-2.077865601E-2,-1.931552589E-1
8.794206176E0,-4.650528729E-2,-1.275987625E-1,-2.339487523E-1
8.824198841E0,1.543792784E-1,-2.316684723E-1,-1.541824937E-1
8.854191539E0,3.026557863E-1,-3.026409149E-1,-8.537994325E-2
8.884184238E0,3.231210709E-1,-2.903852463E-1,-1.347870380E-2
8.914176937E0,2.496585846E-1,-2.353382111E-1,1.441555470E-2
8.944169635E0,1.159214377E-1,-8.974552155E-2,-8.014284074E-2
8.974162300E0,-4.847124219E-4,2.918243408E-2,-2.243014425E-1
9.004154965E0,3.959476948E-3,4.548645020E-2,-2.767753601E-1
9.034147697E0,8.262078464E-2,-6.735801697E-3,-2.392534316E-1
9.064140362E0,2.425317168E-1,-9.690284729E-2,-1.125322953E-1
9.094132994E0,3.433702290E-1,-1.203651428E-1,1.486425102E-2
9.124125692E0,3.671346307E-1,-1.105804443E-1,8.446078002E-2
9.154118324E0,2.337230593E-1,-4.107475281E-2,6.572905183E-2
9.184110989E0,9.593297541E-2,3.998947144E-2,-2.072078735E-2
9.214103654E0,-3.008095175E-2,7.755374908E-2,-1.227280423E-1
9.244096286E0,-4.326286912E-2,7.949638367E-2,-1.185017377E-1
9.274088984E0,2.382490039E-2,-2.324867249E-2,-6.623078883E-2
9.304081682E0,1.072161496E-1,-1.234188080E-1,9.867262840E-2
9.334074281E0,1.840283424E-1,-1.760997772E-1,2.266033590E-1
9.364066979E0,1.472253501E-1,-1.909303665E-1,2.534073591E-1
9.394059677E0,3.414294124E-2,-1.654701233E-1,1.677545756E-1
9.424052309E0,-7.862447202E-2,-1.095561981E-1,6.674012542E-2
9.454045007E0,-2.379890382E-1,-4.925441742E-2,-1.412774809E-2
9.484037672E0,-2.606101036E-1,-4.102611542E-2,-7.335969247E-3
9.514030304E0,-2.039412856E-1,-9.147644043E-2,8.069704473E-2
9.544023002E0,-1.151798964E-1,-1.700496674E-1,2.199247628E-1
9.574015667E0,-4.992040992E-2,-1.793432236E-1,2.990189791E-1
9.604008332E0,-5.772650242E-2,-1.842441559E-1,2.854225636E-1
9.634001030E0,-1.345748454E-1,-1.271667480E-1,1.348627806E-1
9.663993695E0,-2.167849243E-1,-4.446601868E-2,5.493548512E-2
9.693986360E0,-3.264806271E-1,4.263687134E-2,-5.374189466E-2
9.723979058E0,-3.362464905E-1,6.875514984E-2,-2.460040897E-2
9.753971723E0,-2.890016437E-1,3.640747070E-2,5.031915009E-2
9.783964388E0,-1.699596047E-1,-3.360939026E-2,1.444121301E-1
9.813957086E0,-4.314363003E-2,-7.984542847E-2,1.994566917E-1
9.843949751E0,-1.221132278E-2,-1.003160477E-1,1.271696091E-1
9.873942416E0,-2.161714435E-2,-9.297466278E-2,3.286723047E-2
9.903935081E0,-1.328823715E-1,-1.688861847E-2,-9.672558308E-2
9.933927746E0,-1.882558018E-1,9.014129639E-3,-1.273412406E-1
9.963920444E0,-1.711711884E-1,4.685401917E-3,-7.007570565E-2
9.993913109E0,-8.552373946E-2,-5.861377716E-2,-1.317716762E-2
1.002390577E1,5.321948230E-2,-1.433458328E-1,3.997816145E-2
1.004393427E1,1.360873878E-1,-1.833658218E-1,3.001775593E-2
1.006399604E1,1.833842695E-1,-2.333030701E-1,-4.519816488E-3
1.008405780E1,1.955108047E-1,-2.332916260E-1,-9.233495593E-2
1.010411957E1,1.764399111E-1,-2.048435211E-1,-1.584138423E-1
1.012418134E1,1.361330450E-1,-1.598243713E-1,-2.348175049E-1
1.014424310E1,5.814984441E-2,-7.651901245E-2,-2.697313428E-1
1.016430490E1,5.722686648E-3,-5.045890808E-2,-2.543618083E-1
1.018436667E1,1.644078642E-2,-2.172088623E-2,-2.461210638E-1
1.020442844E1,1.018799841E-2,-4.295825958E-2,-2.146737874E-1
1.022449020E1,6.362820417E-2,-5.208110809E-2,-1.511756927E-1
1.024455193E1,1.355330199E-1,-9.239101410E-2,-1.049389988E-1
1.026461370E1,2.319927812E-1,-1.472253799E-1,-9.239143133E-2
1.028467547E1,2.767896056E-1,-1.759614944E-1,-9.432320297E-2
1.030473723E1,3.233020902E-1,-1.665868759E-1,-1.534489840E-1
1.032479900E1,3.045713305E-1,-1.692905426E-1,-2.188963592E-1
1.034482740E1,2.645430565E-1,-1.241168976E-1,-2.706913054E-1
1.037482006E1,1.559204161E-1,-4.304313660E-2,-3.126778007E-1
1.040481273E1,7.917137444E-2,7.231712341E-3,-2.787088156E-1
1.043480542E1,2.736388892E-2,5.063915253E-2,-1.806352437E-1
1.046479809E1,6.498204172E-2,1.524829865E-2,-9.968889505E-2
1.049479079E1,1.268677115E-1,-8.485984802E-2,-3.841558471E-2
1.052478349E1,1.799844503E-1,-1.229763031E-1,-4.646094143E-2
1.055477615E1,2.117085755E-1,-1.494245529E-1,-9.268733859E-2
1.058476882E1,1.342780590E-1,-1.450939178E-1,-1.697236747E-1
1.061476151E1,8.434802294E-3,-8.368682861E-2,-1.617637277E-1
1.064475418E1,-1.000460982E-1,-2.019977570E-2,-9.150420129E-2
1.067474684E1,-1.503877491E-1,-2.129745483E-2,2.272277698E-2
1.070473954E1,-1.473874003E-1,-4.351234436E-2,1.149056852E-1
1.073473221E1,-8.528472483E-2,-1.154232025E-1,1.625314355E-1
1.076472491E1,-3.471651673E-2,-1.654262543E-1,1.386032254E-1
1.079471757E1,5.441904068E-4,-1.917142868E-1,6.094232202E-2
1.082471020E1,-5.581605434E-2,-1.660413742E-1,2.170965448E-2
1.085470290E1,-1.490242034E-1,-1.173400879E-1,-1.766644418E-3
1.088469560E1,-2.582478523E-1,-3.792476654E-2,6.347089261E-2
1.091468823E1,-2.984825373E-1,2.748775482E-2,1.651413143E-1
1.094468093E1,-2.969826460E-1,-4.086494446E-3,2.294236124E-1
1.097467363E1,-2.347265929E-1,-6.543922424E-2,2.162771970E-1
1.100466626E1,-1.351324022E-1,-8.775901794E-2,1.732124686E-1
1.103465892E1,-9.847739339E-2,-1.271524429E-1,7.408727705E-2
1.106465159E1,-9.532341361E-2,-1.099739075E-1,1.970963925E-2
1.109464425E1,-1.547549367E-1,-5.048274994E-2,2.016717568E-2
1.112463695E1,-2.022636533E-1,-1.043415070E-2,3.444090858E-2
1.115462962E1,-2.783984542E-1,2.534198761E-2,1.322550178E-1
1.118462232E1,-2.373712063E-1,9.465217590E-3,1.476808488E-1
1.121461501E1,-1.256828755E-1,-4.867172241E-2,1.342993826E-1
1.124460768E1,-1.121670008E-2,-1.115350723E-1,8.305142820E-2
1.127460034E1,7.200843096E-2,-1.390714645E-1,4.809081554E-3
1.129466211E1,8.369594812E-2,-1.698417664E-1,-3.928148001E-2
1.131472391E1,8.902986348E-2,-1.577539444E-1,-8.429412544E-2
1.133478568E1,4.312281311E-2,-1.242218018E-1,-7.233780622E-2
1.135484744E1,1.465988159E-2,-7.636165619E-2,-3.518106043E-2
1.137490921E1,-3.784587979E-2,-3.802680969E-2,6.398335099E-4
1.139497094E1,-2.929419279E-2,-3.791809082E-2,1.481755823E-2
1.141503271E1,-3.140810132E-2,-3.768825531E-2,5.344028398E-2
1.143509447E1,2.346402407E-2,-4.934310913E-2,5.114661902E-2
1.145515624E1,9.253704548E-2,-5.858898163E-2,3.192497790E-2
1.147521797E1,1.541675031E-1,-1.373987198E-1,-2.796228230E-2
1.149527974E1,2.115099132E-1,-1.637172699E-1,-6.593158841E-2
1.151534150E1,2.569421530E-1,-1.590242386E-1,-1.198460609E-1
1.153540327E1,2.354404628E-1,-1.639108658E-1,-1.424311846E-1
1.155546503E1,2.235086262E-1,-1.376132965E-1,-1.505299509E-1
1.157552683E1,1.714334786E-1,-1.040859222E-1,-1.175522432E-1
1.160551953E1,8.280535787E-2,-3.224182129E-2,-4.208952188E-2
1.163551216E1,3.730053455E-2,6.006240845E-3,1.003661007E-2
1.166550486E1,4.496829212E-2,-1.316738129E-2,4.105777293E-2
1.168553336E1,4.749978334E-2,-1.311779022E-2,7.444471121E-3
1.170559513E1,1.094918475E-1,-7.052612305E-2,-6.380012631E-2
1.172565689E1,1.427052468E-1,-9.205532074E-2,-1.020064503E-1
1.174571866E1,1.678651273E-1,-1.136274338E-1,-9.358583391E-2
1.176578042E1,1.769080460E-1,-1.232728958E-1,-1.141042262E-1
1.178584226E1,1.662473083E-1,-1.209545135E-1,-1.399574131E-1
1.180590402E1,1.103553176E-1,-1.019725800E-1,-7.970175147E-2
1.182596579E1,4.995647073E-2,-7.596015930E-2,-4.811272770E-2
1.184602756E1,-1.060000062E-2,-4.052829742E-2,1.828318834E-2
1.186608929E1,-5.761420727E-2,-2.440834045E-2,5.944631994E-2
1.188615102E1,-8.716997504E-2,-8.260726929E-3,9.277503192E-2
1.190621279E1,-1.256963015E-1,-1.831817627E-2,9.880656004E-2
1.192627455E1,-1.025931686E-1,-2.812290192E-2,7.873634249E-2
1.194633635E1,-7.567548752E-2,-8.800315857E-2,3.977284208E-2
1.196639812E1,-3.989097476E-2,-1.167221069E-1,8.739843965E-3
1.198642652E1,-2.052247524E-2,-1.502866745E-1,-2.657032013E-2
1.201641915E1,-2.980321646E-2,-1.674833298E-1,-3.137428686E-2
1.204641185E1,-7.740750909E-2,-1.302537918E-1,2.880034223E-2
1.207640451E1,-1.779769808E-1,-8.895206451E-2,1.339835972E-1
1.210639714E1,-2.540172338E-1,-5.258083344E-2,1.678812653E-1
1.213638984E1,-2.833279371E-1,-3.941726685E-2,1.978028715E-1
1.216631587E1,-2.855186164E-1,-3.712463379E-2,1.563083977E-1
1.219620857E1,-2.168618590E-1,-8.905696869E-2,8.874671906E-2
1.222610127E1,-1.606012732E-1,-1.193523407E-1,2.888334543E-2
1.225599397E1,-1.480452120E-1,-9.954738617E-2,3.164367378E-2
1.228588667E1,-1.517184228E-1,-1.019029617E-1,8.781644702E-2
1.231577937E1,-2.044293731E-1,-8.562946320E-2,1.182605401E-1
1.234567207E1,-2.367348671E-1,-4.400253296E-3,1.777098477E-1
1.237556477E1,-2.382152528E-1,1.535701752E-2,1.373513937E-1
1.240545747E1,-2.025149167E-1,-9.588241577E-3,8.446092904E-2
1.243535017E1,-1.323549002E-1,-3.190326691E-2,-2.012949437E-3
1.246530953E1,-6.254275143E-2,-9.277629852E-2,-6.856603175E-2
1.249530216E1,1.219049096E-2,-1.110296249E-1,-5.666274950E-2
1.252529486E1,4.458665848E-3,-9.623432159E-2,-1.633022726E-2
1.255528752E1,5.636185408E-3,-7.454872131E-2,3.561703861E-2
1.258528016E1,-3.908412158E-2,-3.617477417E-2,5.329597741E-2
1.261527289E1,-5.388049781E-2,-5.030441284E-2,-1.295629237E-2
1.264526555E1,9.016260505E-3,-8.099365234E-2,-7.126425207E-2
1.267525822E1,9.312793612E-2,-1.260766983E-1,-1.339575201E-1
1.270525092E1,1.575342119E-1,-1.449327469E-1,-1.521859020E-1
1.273524362E1,2.110051811E-1,-1.542539597E-1,-1.482812911E-1
1.276523628E1,1.903169006E-1,-1.372976303E-1,-5.158302933E-2
1.279522898E1,1.682873666E-1,-7.255649567E-2,-1.909523457E-2
1.282522164E1,1.290987581E-1,-7.021236420E-2,-4.108677059E-2
1.285521431E1,1.097676530E-1,-3.683185577E-2,-8.606610447E-2
1.288520701E1,1.313601285E-1,-4.415798187E-2,-1.348149329E-1
1.291519964E1,1.703801751E-1,-5.381107330E-2,-1.588607132E-1
1.294519234E1,2.270527035E-1,-9.686851501E-2,-1.582574844E-1
1.297518500E1,2.579001188E-1,-1.157855988E-1,-1.148571670E-1
1.300517767E1,2.624273300E-1,-1.227235794E-1,-5.225611478E-2
1.303517033E1,1.735717356E-1,-5.084609985E-2,1.047660410E-2
1.306516300E1,9.682233632E-2,-3.188037872E-2,1.553725079E-2
1.309515566E1,5.122040957E-2,-5.873680115E-3,-2.005180344E-2
1.312514836E1,-1.739186049E-2,4.678936005E-1,3.137169838E0
1.315514102E1,-3.806495965E-1,-7.636108398E-1,6.916814446E-1
1.318513369E1,-3.974166512E-1,-4.852323532E-1,1.707851142E-1
1.321512642E1,-4.650827646E-1,-3.482179642E-1,6.259259582E-2
1.324511905E1,-2.670498490E-1,-9.934549332E-1,-1.983813196E-1
1.327511175E1,-4.384066164E-1,-1.524096489E0,-1.750915647E-1
1.330510445E1,-1.974373102E0,-7.752323151E-1,1.221304059E0
1.333509708E1,-2.219500542E0,-2.517881393E-1,9.211423993E-1
1.336508978E1,-1.801823616E0,-2.440681458E-1,-2.614187598E-1
1.339508248E1,-7.600719929E-1,-3.333683014E-1,6.054066420E-1
1.342507511E1,-1.047266573E-1,-3.888959885E-1,7.572362423E-1
1.345506781E1,-2.046340108E-1,-8.183755875E-1,5.443406105E-2
1.348506051E1,-1.296297550E0,-4.670972824E-1,-9.303258657E-1
1.351505311E1,-9.781303406E-1,-1.305427551E-1,-1.659888387E0
1.354504580E1,1.256293058E0,-1.733856201E-1,-9.726710320E-1
1.357503847E1,3.572032690E0,-3.320398331E0,-7.637352943E-1
1.360503114E1,2.488593578E0,-1.465406418E0,-1.755580902E-1
1.363502383E1,-7.648229003E-1,-9.147644043E-3,-1.658544540E-1
1.366501650E1,-1.475088596E0,1.260526657E0,-5.078194141E-1
1.369500913E1,-4.206069112E-1,1.363948822E0,-1.821926832E0
1.372500183E1,9.171820879E-1,5.140104294E-1,-1.434954405E0
1.375499449E1,4.964613914E-1,1.586809158E-1,-5.670468807E-1
1.378498716E1,2.420310974E-1,6.015501022E-1,-8.508443832E-2
1.381497986E1,2.153426409E-1,1.034412384E-1,-2.314720154E-1
1.384497252E1,2.951421738E-1,-3.444108963E-1,-1.116596460E0
1.387496519E1,5.295635462E-1,-2.275381088E-1,-7.291467190E-1
1.390495785E1,4.229450226E-2,2.639493942E-1,-4.147577286E-2
1.393495052E1,5.759781599E-1,3.244915009E-1,-1.502604485E-1
1.396494318E1,8.955144882E-2,1.675891876E-2,2.086119652E-1
1.398497161E1,2.865463495E-1,-1.766719818E-1,-1.579961777E-1
1.400503341E1,2.260720730E-1,2.412948608E-1,-8.804616928E-1
1.402509518E1,3.215553761E-1,2.188386917E-1,-6.728386879E-1
1.404515698E1,2.125991583E-1,3.098773956E-2,-4.712595940E-1
1.406521878E1,1.885766983E-1,1.491870880E-1,-1.400356293E-1
1.408528051E1,2.182595730E-1,1.595487595E-1,-1.185860634E-1
1.410534228E1,2.663079500E-1,4.488248825E-1,1.670041084E-1
1.412540404E1,3.483679295E-1,4.183483124E-1,1.226520538E-1
1.414546584E1,2.988123894E-2,5.750446320E-1,2.452473640E-1
1.416552764E1,1.885732412E-1,4.145870209E-1,3.760142326E-1
1.418558941E1,1.500195265E-1,3.614244461E-1,5.612382889E-1
1.420565117E1,9.827041626E-2,2.105360031E-1,6.882143021E-2
1.422571294E1,4.978609085E-2,1.767225266E-1,6.104373932E-2
1.424577471E1,1.769351959E-1,1.043701172E-1,1.836709976E-1
1.426583647E1,1.342601776E-1,7.852745056E-2,6.785154343E-2
1.428586494E1,8.357965946E-2,-8.749485016E-2,2.432537079E-2
1.431585760E1,1.888372898E-1,-2.494983673E-1,2.069821358E-1
1.434585024E1,2.144167423E-1,-2.258262634E-1,1.799712181E-1
1.437584290E1,7.649016380E-2,-3.330955505E-1,1.038336754E-1
1.440583556E1,-2.032995224E-3,-2.561988831E-1,-1.168878078E-1
1.443582820E1,7.764339447E-3,-1.159000397E-1,5.155467987E-2
1.446582086E1,1.335151196E-1,-1.518373489E-1,1.206600666E-1
1.449581353E1,7.529735565E-3,-2.203702927E-1,-6.991767883E-2
1.451587533E1,-7.477056980E-2,-1.437807083E-1,2.620577812E-2
1.453593709E1,-1.784658432E-2,-5.946540833E-2,-2.311706543E-3
1.455599883E1,-9.233629704E-2,5.445194244E-2,-3.023457527E-2
1.457606059E1,-6.403374672E-2,3.664779663E-2,-7.966923714E-2
1.459612236E1,-1.065208912E-1,5.095100403E-2,7.077169418E-2
1.461618412E1,-1.665794849E-2,1.204166412E-1,2.737073898E-1
1.463624592E1,8.673024178E-2,1.155738831E-1,4.134027958E-1
1.465630769E1,5.088901520E-2,9.730052948E-2,1.241524220E-1
1.467636946E1,-1.811052561E-1,2.292375565E-1,-1.204824209E0
1.469643122E1,1.440167427E-1,-3.135442734E-1,-1.486988068E-1
1.471649299E1,5.440235138E-2,-2.079267502E-1,6.579260826E-1
1.473655475E1,-1.797605753E-1,-2.043342590E-2,-1.559140682E-1
1.475661652E1,-1.187034845E-1,4.552173615E-2,-3.610193729E-1
1.477667829E1,-9.525990486E-2,-7.940387726E-2,-1.904621124E-1
1.479674005E1,7.318663597E-2,-1.288309097E-1,2.557668686E-1
